{
  "resourceType": "Bundle",
  "id": "bundle-at-home-in-vitro-test-results-s-trevor",
  "meta": {
    "profile": [
      "http://hl7.org/fhir/us/home-lab-report/StructureDefinition/Bundle-at-home-in-vitro-test"
    ]
  },
  "type": "message",
  "identifier": {
    "system": "urn:ietf:rfc:3986",
    "value": "urn:uuid:683dde44f7664b03a20b6324f23986d8"
  },
  "timestamp": "2021-01-28T16:07:15-05:00",
  "entry": [
    {
      "fullUrl": "https://fhir.org/fhir/MessageHeader/messageheader-at-home-in-vitro-test-s-trevor",
      "resource": {
        "resourceType": "MessageHeader",
        "id": "messageheader-at-home-in-vitro-test-s-trevor",
        "meta": {
          "versionId": "2",
          "lastUpdated": "2023-01-26T22:41:41.871+00:00",
          "source": "#7uPOAfaywEsWK4x3",
          "profile": [
            "http://hl7.org/fhir/us/home-lab-report/StructureDefinition/MessageHeader-at-home-in-vitro-test-results"
          ]
        },
        "eventCoding": {
          "code": "96552-5",
          "system": "http://loinc.org"
        },
        "source": {
          "extension": [
            {
              "extension": [
                {
                  "url": "vendorOrganization",
                  "valueReference": {
                    "reference": "Organization/us-core-organization-reliable-informatics"
                  }
                },
                {
                  "url": "softwareBinaryID",
                  "valueString": "Binary ID unknown"
                }
              ],
              "url": "http://hl7.org/fhir/us/home-lab-report/StructureDefinition/Extension-at-home-in-vitro-test-source-software-info"
            }
          ],
          "name": "ACMELIMS PH",
          "software": "ACMELIMS PH",
          "endpoint": "http://at-home-in-vitro-test.org/fhir/endpoint/1"
        },
        "focus": [
          {
            "reference": "DiagnosticReport/diagnosticreport-at-home-in-vitro-results-covid-s-trevor"
          }
        ]
      }
    },
    {
      "fullUrl": "https://fhir.org/fhir/DiagnosticReport/diagnosticreport-at-home-in-vitro-results-covid-s-trevor",
      "resource": {
        "resourceType": "DiagnosticReport",
        "id": "diagnosticreport-at-home-in-vitro-results-covid-s-trevor",
        "meta": {
          "versionId": "2",
          "lastUpdated": "2023-01-26T22:33:19.818+00:00",
          "source": "#Ge55aDZCqn1xIV3N",
          "profile": [
            "http://hl7.org/fhir/us/home-lab-report/StructureDefinition/DiagnosticReport-at-home-in-vitro-results-covid"
          ]
        },
        "status": "final",
        "category": [
          {
            "coding": [
              {
                "system": "http://terminology.hl7.org/CodeSystem/v2-0074",
                "code": "LAB",
                "display": "Laboratory"
              }
            ]
          }
        ],
        "extension": [
          {
            "url": "http://hl7.org/fhir/us/home-lab-report/StructureDefinition/Extension-at-home-in-vitro-test-supporting-info",
            "extension": [
              {
                "url": "type",
                "valueCodeableConcept": {
                  "coding": [
                    {
                      "code": "QST",
                      "system": "http://terminology.hl7.org/CodeSystem/v2-0936",
                      "display": "Question"
                    }
                  ]
                }
              },
              {
                "url": "reference",
                "valueReference": {
                  "reference": "Observation/observation-patient-answer-first-test-s-trevor",
                  "display": "Whether this is the patient's first test for the condition of interest: No"
                }
              }
            ]
          },
          {
            "url": "http://hl7.org/fhir/us/home-lab-report/StructureDefinition/Extension-at-home-in-vitro-test-supporting-info",
            "extension": [
              {
                "url": "type",
                "valueCodeableConcept": {
                  "coding": [
                    {
                      "code": "QST",
                      "system": "http://terminology.hl7.org/CodeSystem/v2-0936",
                      "display": "Question"
                    }
                  ]
                }
              },
              {
                "url": "reference",
                "valueReference": {
                  "reference": "Observation/observation-patient-answer-employed-healthcare-s-trevor",
                  "display": "Whether patient is employed in a healthcare setting: No"
                }
              }
            ]
          },
          {
            "url": "http://hl7.org/fhir/us/home-lab-report/StructureDefinition/Extension-at-home-in-vitro-test-supporting-info",
            "extension": [
              {
                "url": "type",
                "valueCodeableConcept": {
                  "coding": [
                    {
                      "code": "QST",
                      "system": "http://terminology.hl7.org/CodeSystem/v2-0936",
                      "display": "Question"
                    }
                  ]
                }
              },
              {
                "url": "reference",
                "valueReference": {
                  "reference": "Observation/observation-patient-answer-symptoms-present-covid-s-trevor",
                  "display": "Whether patient has symptoms related to condition of interest: Yes"
                }
              }
            ]
          },
          {
            "url": "http://hl7.org/fhir/us/home-lab-report/StructureDefinition/Extension-at-home-in-vitro-test-supporting-info",
            "extension": [
              {
                "url": "type",
                "valueCodeableConcept": {
                  "coding": [
                    {
                      "code": "QST",
                      "system": "http://terminology.hl7.org/CodeSystem/v2-0936",
                      "display": "Question"
                    }
                  ]
                }
              },
              {
                "url": "reference",
                "valueReference": {
                  "reference": "Observation/observation-patient-answer-hospitalized-s-trevor",
                  "display": "Whether patient was hospitalized because of this condition: No"
                }
              }
            ]
          },
          {
            "url": "http://hl7.org/fhir/us/home-lab-report/StructureDefinition/Extension-at-home-in-vitro-test-supporting-info",
            "extension": [
              {
                "url": "type",
                "valueCodeableConcept": {
                  "coding": [
                    {
                      "code": "QST",
                      "system": "http://terminology.hl7.org/CodeSystem/v2-0936",
                      "display": "Question"
                    }
                  ]
                }
              },
              {
                "url": "reference",
                "valueReference": {
                  "reference": "Observation/observation-patient-answer-congregate-s-trevor",
                  "display": "Whether patient resides in a congregate care setting: Yes"
                }
              }
            ]
          },
          {
            "url": "http://hl7.org/fhir/us/home-lab-report/StructureDefinition/Extension-at-home-in-vitro-test-supporting-info",
            "extension": [
              {
                "url": "type",
                "valueCodeableConcept": {
                  "coding": [
                    {
                      "code": "QST",
                      "system": "http://terminology.hl7.org/CodeSystem/v2-0936",
                      "display": "Question"
                    }
                  ]
                }
              },
              {
                "url": "reference",
                "valueReference": {
                  "reference": "Observation/observation-patient-answer-pregnancy-s-trevor",
                  "display": "Pregnancy status: Not pregnant"
                }
              }
            ]
          }
        ],
        "code": {
          "coding": [
            {
              "code": "95209-3",
              "system": "http://loinc.org",
              "display": "SARS-CoV+SARS-CoV-2 (COVID-19) Ag [Presence] in Respiratory specimen by Rapid immunoassay"
            }
          ]
        },
        "subject": {
          "reference": "Patient/patient-at-home-in-vitro-test-stacy-trevor",
          "display": "Stacy Trevor"
        },
        "effectiveDateTime": "2021-01-28T11:45:33+11:00",
        "issued": "2021-01-28T16:06:21-05:00",
        "result": [
          {
            "reference": "Observation/observation-at-home-in-vitro-test-result-covid-s-trevor",
            "display": "SARS-CoV+SARS-CoV-2"
          }
        ]
      }
    },
    {
      "fullUrl": "https://fhir.org/fhir/Observation/observation-at-home-in-vitro-test-result-covid-s-trevor",
      "resource": {
        "resourceType": "Observation",
        "id": "observation-at-home-in-vitro-test-result-covid-s-trevor",
        "meta": {
          "versionId": "1",
          "lastUpdated": "2023-01-26T22:14:40.519+00:00",
          "source": "#zinBI6yFGAuJQfTe",
          "profile": [
            "http://hl7.org/fhir/us/home-lab-report/StructureDefinition/Observation-at-home-in-vitro-test-result-covid"
          ]
        },
        "status": "final",
        "category": [
          {
            "coding": [
              {
                "system": "http://terminology.hl7.org/CodeSystem/observation-category",
                "code": "laboratory",
                "display": "Laboratory"
              }
            ],
            "text": "Laboratory"
          }
        ],
        "code": {
          "coding": [
            {
              "code": "95209-3",
              "system": "http://loinc.org",
              "display": "SARS-CoV+SARS-CoV-2 (COVID-19) Ag [Presence] in Respiratory specimen by Rapid immunoassay"
            }
          ],
          "text": "SARS-CoV+SARS-CoV-2 (COVID-19) Ag [Presence] in Respiratory specimen by Rapid immunoassay"
        },
        "subject": {
          "reference": "Patient/patient-at-home-in-vitro-test-stacy-trevor",
          "display": "Stacy Trevor"
        },
        "effectiveDateTime": "2021-01-28T16:06:21-05:00",
        "valueCodeableConcept": {
          "coding": [
            {
              "code": "260373001",
              "system": "http://snomed.info/sct",
              "display": "Detected"
            }
          ]
        },
        "specimen": {
          "reference": "Specimen/specimen-swab-internal-nose-s-trevor",
          "display": "P21-0000105078OneReliableSol.STAG"
        },
        "device": {
          "reference": "Device/device-hometest1-s-trevor",
          "display": "Acme COVID-19 Home Test_Acme Limited"
        }
      }
    },
    {
      "fullUrl": "https://fhir.org/fhir/Observation/observation-patient-answer-symptoms-present-covid-s-trevor",
      "resource": {
        "resourceType": "Observation",
        "id": "observation-patient-answer-symptoms-present-covid-s-trevor",
        "meta": {
          "versionId": "1",
          "lastUpdated": "2023-01-26T22:14:40.524+00:00",
          "source": "#lfKCMMJjTs4Rs37D",
          "profile": [
            "http://hl7.org/fhir/us/home-lab-report/StructureDefinition/Observation-patient-question-answer"
          ]
        },
        "category": [
          {
            "coding": [
              {
                "system": "http://terminology.hl7.org/CodeSystem/observation-category",
                "code": "survey",
                "display": "Survey"
              }
            ],
            "text": "Survey"
          }
        ],
        "status": "final",
        "code": {
          "coding": [
            {
              "code": "95419-8",
              "system": "http://loinc.org",
              "display": "Whether the patient has symptoms related to condition of interest"
            }
          ],
          "text": "Whether the patient has symptoms related to condition of interest"
        },
        "subject": {
          "reference": "Patient/patient-at-home-in-vitro-test-stacy-trevor",
          "display": "Stacy Trevor"
        },
        "effectiveDateTime": "2021-01-28T16:06:03-05:00",
        "valueCodeableConcept": {
          "coding": [
            {
              "code": "Y",
              "system": "http://terminology.hl7.org/CodeSystem/v2-0532",
              "display": "Yes"
            }
          ]
        }
      }
    },
    {
      "fullUrl": "https://fhir.org/fhir/Observation/observation-patient-answer-hospitalized-s-trevor",
      "resource": {
        "resourceType": "Observation",
        "id": "observation-patient-answer-hospitalized-s-trevor",
        "meta": {
          "versionId": "2",
          "lastUpdated": "2023-01-26T22:45:04.344+00:00",
          "source": "#HFkhZJ9OUCagztur",
          "profile": [
            "http://hl7.org/fhir/us/home-lab-report/StructureDefinition/Observation-patient-question-answer"
          ]
        },
        "category": [
          {
            "coding": [
              {
                "system": "http://terminology.hl7.org/CodeSystem/observation-category",
                "code": "survey",
                "display": "Survey"
              }
            ],
            "text": "Survey"
          }
        ],
        "status": "final",
        "code": {
          "coding": [
            {
              "code": "77974-4",
              "system": "http://loinc.org",
              "display": "Whether the patient was hospitalized for condition of interest"
            }
          ],
          "text": "Whether the patient was hospitalized for condition of interest"
        },
        "subject": {
          "reference": "Patient/patient-at-home-in-vitro-test-stacy-trevor",
          "display": "Stacy Trevor"
        },
        "effectiveDateTime": "2021-01-28T16:06:03-05:00",
        "valueCodeableConcept": {
          "coding": [
            {
              "code": "N",
              "system": "http://terminology.hl7.org/CodeSystem/v2-0532",
              "display": "No"
            }
          ]
        }
      }
    },
    {
      "fullUrl": "https://fhir.org/fhir/Observation/observation-patient-answer-congregate-s-trevor",
      "resource": {
        "resourceType": "Observation",
        "id": "observation-patient-answer-congregate-s-trevor",
        "meta": {
          "versionId": "1",
          "lastUpdated": "2023-01-26T22:14:40.525+00:00",
          "source": "#gqS1fGnjiCaUi3OM",
          "profile": [
            "http://hl7.org/fhir/us/home-lab-report/StructureDefinition/Observation-patient-question-answer"
          ]
        },
        "category": [
          {
            "coding": [
              {
                "system": "http://terminology.hl7.org/CodeSystem/observation-category",
                "code": "survey",
                "display": "Survey"
              }
            ],
            "text": "Survey"
          }
        ],
        "status": "final",
        "code": {
          "coding": [
            {
              "code": "95421-4",
              "system": "http://loinc.org",
              "display": "Whether patient resides in a congregate care setting"
            }
          ],
          "text": "Whether patient resides in a congregate care setting"
        },
        "subject": {
          "reference": "Patient/patient-at-home-in-vitro-test-stacy-trevor",
          "display": "Stacy Trevor"
        },
        "effectiveDateTime": "2021-01-28T16:06:03-05:00",
        "valueCodeableConcept": {
          "coding": [
            {
              "code": "Y",
              "system": "http://terminology.hl7.org/CodeSystem/v2-0532",
              "display": "Yes"
            }
          ]
        }
      }
    },
    {
      "fullUrl": "https://fhir.org/fhir/Observation/observation-patient-answer-employed-healthcare-s-trevor",
      "resource": {
        "resourceType": "Observation",
        "id": "observation-patient-answer-employed-healthcare-s-trevor",
        "meta": {
          "versionId": "2",
          "lastUpdated": "2023-01-26T22:43:34.963+00:00",
          "source": "#JSpmpl8a7Yhg2kNv",
          "profile": [
            "http://hl7.org/fhir/us/home-lab-report/StructureDefinition/Observation-patient-question-answer"
          ]
        },
        "category": [
          {
            "coding": [
              {
                "system": "http://terminology.hl7.org/CodeSystem/observation-category",
                "code": "survey",
                "display": "Survey"
              }
            ],
            "text": "Survey"
          }
        ],
        "status": "final",
        "code": {
          "coding": [
            {
              "code": "95418-0",
              "system": "http://loinc.org",
              "display": "Whether patient is employed in a healthcare setting"
            }
          ],
          "text": "Whether patient is employed in a healthcare setting"
        },
        "subject": {
          "reference": "Patient/patient-at-home-in-vitro-test-stacy-trevor",
          "display": "Stacy Trevor"
        },
        "effectiveDateTime": "2021-01-28T16:06:03-05:00",
        "valueCodeableConcept": {
          "coding": [
            {
              "code": "N",
              "system": "http://terminology.hl7.org/CodeSystem/v2-0532",
              "display": "No"
            }
          ]
        }
      }
    },
    {
      "fullUrl": "https://fhir.org/fhir/Observation/observation-patient-answer-first-test-s-trevor",
      "resource": {
        "resourceType": "Observation",
        "id": "observation-patient-answer-first-test-s-trevor",
        "meta": {
          "versionId": "2",
          "lastUpdated": "2023-01-26T22:44:27.266+00:00",
          "source": "#N2XwtOKvNJsa2Scu",
          "profile": [
            "http://hl7.org/fhir/us/home-lab-report/StructureDefinition/Observation-patient-question-answer"
          ]
        },
        "category": [
          {
            "coding": [
              {
                "system": "http://terminology.hl7.org/CodeSystem/observation-category",
                "code": "survey",
                "display": "Survey"
              }
            ],
            "text": "Survey"
          }
        ],
        "status": "final",
        "code": {
          "coding": [
            {
              "code": "95417-2",
              "system": "http://loinc.org",
              "display": "Whether this is the patient's first test for condition of interest"
            }
          ],
          "text": "Whether this is the patient's first test for condition of interest"
        },
        "subject": {
          "reference": "Patient/patient-at-home-in-vitro-test-stacy-trevor",
          "display": "Stacy Trevor"
        },
        "effectiveDateTime": "2021-01-28T16:06:03-05:00",
        "valueCodeableConcept": {
          "coding": [
            {
              "code": "N",
              "system": "http://terminology.hl7.org/CodeSystem/v2-0532",
              "display": "No"
            }
          ]
        }
      }
    },
    {
      "fullUrl": "https://fhir.org/fhir/Observation/observation-patient-answer-pregnancy-s-trevor",
      "resource": {
        "resourceType": "Observation",
        "id": "observation-patient-answer-pregnancy-s-trevor",
        "meta": {
          "versionId": "1",
          "lastUpdated": "2023-01-26T22:14:40.518+00:00",
          "source": "#YCOTptFf2QBL6SPy",
          "profile": [
            "http://hl7.org/fhir/us/home-lab-report/StructureDefinition/Observation-patient-question-answer"
          ]
        },
        "category": [
          {
            "coding": [
              {
                "system": "http://terminology.hl7.org/CodeSystem/observation-category",
                "code": "survey",
                "display": "Survey"
              }
            ],
            "text": "Survey"
          }
        ],
        "status": "final",
        "code": {
          "coding": [
            {
              "code": "82810-3",
              "system": "http://loinc.org",
              "display": "Pregnancy status"
            }
          ],
          "text": "Pregnancy status"
        },
        "subject": {
          "reference": "Patient/patient-at-home-in-vitro-test-stacy-trevor",
          "display": "Stacy Trevor"
        },
        "effectiveDateTime": "2021-01-28T16:06:03-05:00",
        "valueCodeableConcept": {
          "coding": [
            {
              "code": "60001007",
              "system": "http://snomed.info/sct",
              "display": "Not pregnant (finding)"
            }
          ]
        }
      }
    },
    {
      "fullUrl": "https://fhir.org/fhir/Patient/patient-at-home-in-vitro-test-stacy-trevor",
      "resource": {
        "resourceType": "Patient",
        "id": "patient-at-home-in-vitro-test-stacy-trevor",
        "meta": {
          "versionId": "2",
          "lastUpdated": "2023-01-26T22:49:49.626+00:00",
          "source": "#m0lIVlIgfqsr1jaz",
          "profile": [
            "http://hl7.org/fhir/us/home-lab-report/StructureDefinition/Patient-at-home-in-vitro-test"
          ]
        },
        "extension": [
          {
            "extension": [
              {
                "url": "ombCategory",
                "valueCoding": {
                  "code": "2054-5",
                  "system": "urn:oid:2.16.840.1.113883.6.238",
                  "display": "Black or African American"
                }
              },
              {
                "url": "text",
                "valueString": "Black or African American"
              }
            ],
            "url": "http://hl7.org/fhir/us/core/StructureDefinition/us-core-race"
          },
          {
            "extension": [
              {
                "url": "ombCategory",
                "valueCoding": {
                  "code": "UNK",
                  "system": "http://terminology.hl7.org/CodeSystem/v3-NullFlavor",
                  "display": "Unknown"
                }
              },
              {
                "url": "text",
                "valueString": "Unknown"
              }
            ],
            "url": "http://hl7.org/fhir/us/core/StructureDefinition/us-core-ethnicity"
          },
          {
            "extension": [
              {
                "url": "value",
                "valueCodeableConcept": {
                  "coding": [
                    {
                      "code": "female",
                      "system": "http://hl7.org/fhir/us/home-lab-report/CodeSystem/codesystem-sex-for-clinical-use",
                      "display": "Female sex for clinical use"
                    }
                  ]
                }
              }
            ],
            "url": "http://hl7.org/fhir/us/home-lab-report/StructureDefinition/Extension-sex-for-clinical-use"
          }
        ],
        "identifier": [
          {
            "use": "usual",
            "type": {
              "coding": [
                {
                  "code": "MR",
                  "system": "http://terminology.hl7.org/CodeSystem/v2-0203",
                  "display": "Medical Record Number"
                }
              ],
              "text": "Medical Record Number"
            },
            "system": "http://hospital.reliableorg.org",
            "value": "P21-0000105078"
          }
        ],
        "active": true,
        "name": [
          {
            "family": "Trevor",
            "given": [
              "Stacy"
            ]
          }
        ],
        "telecom": [
          {
            "system": "phone",
            "value": "947-226-0356",
            "use": "home"
          }
        ],
        "gender": "female",
        "birthDate": "1988-01-21",
        "address": [
          {
            "line": [
              "11 Norman Drive"
            ],
            "city": "Palatine",
            "district": "Cook",
            "state": "IL",
            "postalCode": "60067",
            "country": "US"
          }
        ]
      }
    },
    {
      "fullUrl": "https://fhir.org/fhir/Specimen/specimen-swab-internal-nose-s-trevor",
      "resource": {
        "resourceType": "Specimen",
        "id": "specimen-swab-internal-nose-s-trevor",
        "meta": {
          "versionId": "2",
          "lastUpdated": "2023-01-26T22:49:23.006+00:00",
          "source": "#HpMWcBBNgkCMCvwC",
          "profile": [
            "http://hl7.org/fhir/us/home-lab-report/StructureDefinition/Specimen-at-home-in-vitro-test"
          ]
        },
        "identifier": [
          {
            "system": "http://reliable.org",
            "value": "P21-0000105078OneReliableSol.STAG"
          }
        ],
        "status": "available",
        "type": {
          "coding": [
            {
              "code": "445297001",
              "system": "http://snomed.info/sct",
              "display": "Swab of internal nose (specimen)"
            }
          ],
          "text": "Swab of internal nose (specimen)"
        },
        "subject": {
          "reference": "Patient/patient-at-home-in-vitro-test-stacy-trevor",
          "display": "Stacy Trevor"
        },
        "receivedTime": "2021-01-28T16:06:03-05:00",
        "collection": {
          "collectedDateTime": "2021-01-28T16:06:03-05:00"
        }
      }
    },
    {
      "fullUrl": "https://fhir.org/fhir/Device/device-hometest1-s-trevor",
      "resource": {
        "resourceType": "Device",
        "id": "device-hometest1-s-trevor",
        "meta": {
          "versionId": "1",
          "lastUpdated": "2023-01-26T22:14:40.524+00:00",
          "source": "#Sxj8SUXVLoqUDfBx",
          "profile": [
            "http://hl7.org/fhir/us/home-lab-report/StructureDefinition/Device-at-home-in-vitro-test"
          ]
        },
        "deviceName": [
          {
            "type": "model-name",
            "name": "Acme COVID-19 Home Test_Acme Limited"
          }
        ],
        "udiCarrier": [
          {
            "deviceIdentifier": "Acme COVID-19 Home Test_Acme Limited_EUA",
            "issuer": "GS1"
          }
        ],
        "status": "active",
        "manufacturer": "ACME CORPORATION",
        "expirationDate": "2022-11-20",
        "lotNumber": "7654321F",
        "serialNumber": "10987654d323",
        "modelNumber": "20388",
        "partNumber": "20388"
      }
    }
  ]
}
