{
  "resourceType": "Bundle",
  "id": "bundle-at-home-in-vitro-test-results-p-noelle",
  "meta": {
    "versionId": "25",
    "lastUpdated": "2023-01-26T02:03:11.656+00:00",
    "source": "#JwmMvWKNtLg8dfPk",
    "profile": [
      "http://hl7.org/fhir/us/home-lab-report/StructureDefinition/Bundle-at-home-in-vitro-test"
    ]
  },
  "type": "message",
  "identifier": {
    "system": "urn:ietf:rfc:3986",
    "value": "urn:uuid:683dde44f7664b03a20b6324f23986d9"
  },
  "timestamp": "2022-04-29T08:51:14.637+00:00",
  "entry": [
    {
      "fullUrl": "https://fhir.org/fhir/MessageHeader/messageheader-at-home-in-vitro-test-p-noelle",
      "resource": {
        "resourceType": "MessageHeader",
        "id": "messageheader-at-home-in-vitro-test-p-noelle",
        "meta": {
          "versionId": "9",
          "lastUpdated": "2023-01-26T22:23:23.051+00:00",
          "source": "#Hg6v98WBE27BXwor",
          "profile": [
            "http://hl7.org/fhir/us/home-lab-report/StructureDefinition/MessageHeader-at-home-in-vitro-test-results"
          ]
        },
        "eventCoding": {
          "code": "96552-5",
          "system": "http://loinc.org"
        },
        "source": {
          "extension": [
            {
              "extension": [
                {
                  "url": "vendorOrganization",
                  "valueReference": {
                    "reference": "Organization/us-core-organization-acme-corporation"
                  }
                },
                {
                  "url": "softwareBinaryID",
                  "valueString": "Binary ID unknown"
                },
                {
                  "url": "softwareInstallDate",
                  "valueDate": "2022-06-01"
                }
              ],
              "url": "http://hl7.org/fhir/us/home-lab-report/StructureDefinition/Extension-at-home-in-vitro-test-source-software-info"
            }
          ],
          "name": "ACME Application Server",
          "software": "ACME Application Software",
          "version": "1.2.3.4.5",
          "contact": {
            "system": "phone",
            "value": "+1 (555) 987 6543"
          },
          "endpoint": "http://at-home-in-vitro-test.org/fhir/endpoint/1"
        },
        "focus": [
          {
            "reference": "DiagnosticReport/diagnosticreport-at-home-in-vitro-results-covid-p-noelle"
          }
        ]
      }
    },
    {
      "fullUrl": "https://fhir.org/fhir/DiagnosticReport/diagnosticreport-at-home-in-vitro-results-covid-p-noelle",
      "resource": {
        "resourceType": "DiagnosticReport",
        "id": "diagnosticreport-at-home-in-vitro-results-covid-p-noelle",
        "meta": {
          "versionId": "10",
          "lastUpdated": "2023-01-26T20:27:13.669+00:00",
          "source": "#RJBW6bRk9vEpM4Wv",
          "profile": [
            "http://hl7.org/fhir/us/home-lab-report/StructureDefinition/DiagnosticReport-at-home-in-vitro-results-covid"
          ]
        },
        "status": "final",
        "category": [
          {
            "coding": [
              {
                "system": "http://terminology.hl7.org/CodeSystem/v2-0074",
                "code": "LAB",
                "display": "Laboratory"
              }
            ]
          }
        ],
        "extension": [
          {
            "url": "http://hl7.org/fhir/us/home-lab-report/StructureDefinition/Extension-at-home-in-vitro-test-supporting-info",
            "extension": [
              {
                "url": "type",
                "valueCodeableConcept": {
                  "coding": [
                    {
                      "code": "QST",
                      "system": "http://terminology.hl7.org/CodeSystem/v2-0936",
                      "display": "Question"
                    }
                  ]
                }
              },
              {
                "url": "reference",
                "valueReference": {
                  "reference": "Observation/observation-patient-answer-symptoms-present-covid-p-noelle",
                  "display": "Whether the patient has symptoms related to condition of interest: Yes"
                }
              }
            ]
          },
          {
            "url": "http://hl7.org/fhir/us/home-lab-report/StructureDefinition/Extension-at-home-in-vitro-test-supporting-info",
            "extension": [
              {
                "url": "type",
                "valueCodeableConcept": {
                  "coding": [
                    {
                      "code": "QST",
                      "system": "http://terminology.hl7.org/CodeSystem/v2-0936",
                      "display": "Question"
                    }
                  ]
                }
              },
              {
                "url": "reference",
                "valueReference": {
                  "reference": "Observation/observation-patient-answer-symptom-onset-covid-p-noelle",
                  "display": "Date and time of symptom onset: March 22, 2021"
                }
              }
            ]
          }
        ],
        "code": {
          "coding": [
            {
              "code": "95209-3",
              "system": "http://loinc.org",
              "display": "SARS-CoV+SARS-CoV-2 (COVID-19) Ag [Presence] in Respiratory specimen by Rapid immunoassay"
            }
          ]
        },
        "subject": {
          "reference": "Patient/patient-at-home-in-vitro-test-patricia-noelle",
          "display": "Patricia Noelle"
        },
        "effectiveDateTime": "2021-03-10T11:45:33+11:00",
        "issued": "2021-03-10T11:45:33+11:00",
        "result": [
          {
            "reference": "Observation/observation-at-home-in-vitro-test-result-covid-p-noelle",
            "display": "SARS-CoV+SARS-CoV-2"
          }
        ]
      }
    },
    {
      "fullUrl": "https://fhir.org/fhir/Observation/observation-at-home-in-vitro-test-result-covid-p-noelle",
      "resource": {
        "resourceType": "Observation",
        "id": "observation-at-home-in-vitro-test-result-covid-p-noelle",
        "meta": {
          "versionId": "8",
          "lastUpdated": "2023-01-25T04:01:01.565+00:00",
          "source": "#whPtTjKWaru0AgH7",
          "profile": [
            "http://hl7.org/fhir/us/home-lab-report/StructureDefinition/Observation-at-home-in-vitro-test-result-covid"
          ]
        },
        "status": "final",
        "category": [
          {
            "coding": [
              {
                "system": "http://terminology.hl7.org/CodeSystem/observation-category",
                "code": "laboratory",
                "display": "Laboratory"
              }
            ],
            "text": "Laboratory"
          }
        ],
        "extension": [
          {
            "url": "http://hl7.org/fhir/us/home-lab-report/StructureDefinition/Extension-at-home-in-vitro-test-proctored-info",
            "extension": [
              {
                "url": "proctoredTest",
                "valueBoolean": true
              },
              {
                "url": "proctorInformation",
                "valueReference": {
                  "reference": "Practitioner/practitioner-us-core-proctor"
                }
              }
            ]
          }
        ],
        "code": {
          "coding": [
            {
              "code": "95209-3",
              "system": "http://loinc.org",
              "display": "SARS-CoV+SARS-CoV-2 (COVID-19) Ag [Presence] in Respiratory specimen by Rapid immunoassay"
            }
          ],
          "text": "SARS-CoV+SARS-CoV-2 (COVID-19) Ag [Presence] in Respiratory specimen by Rapid immunoassay"
        },
        "subject": {
          "reference": "Patient/patient-at-home-in-vitro-test-patricia-noelle",
          "display": "Patricia Noelle"
        },
        "effectiveDateTime": "2020-03-10",
        "valueCodeableConcept": {
          "coding": [
            {
              "code": "260373001",
              "system": "http://snomed.info/sct",
              "display": "Detected"
            }
          ]
        },
        "specimen": {
          "reference": "Specimen/specimen-anterior-nares-swab-p-noelle",
          "display": "UR Specimen ID: MLD45-Z4-1234"
        },
        "device": {
          "reference": "Device/device-fast-sars-antigen-test",
          "display": "UDI Device ID: 30014613339373"
        }
      }
    },
    {
      "fullUrl": "https://fhir.org/fhir/Observation/observation-at-home-in-vitro-test-result-covid-p-noelle",
      "resource": {
        "resourceType": "Observation",
        "id": "observation-at-home-in-vitro-test-result-covid-p-noelle",
        "meta": {
          "versionId": "8",
          "lastUpdated": "2023-01-25T04:01:01.565+00:00",
          "source": "#whPtTjKWaru0AgH7",
          "profile": [
            "http://hl7.org/fhir/us/home-lab-report/StructureDefinition/Observation-at-home-in-vitro-test-result-covid"
          ]
        },
        "status": "final",
        "category": [
          {
            "coding": [
              {
                "system": "http://terminology.hl7.org/CodeSystem/observation-category",
                "code": "laboratory",
                "display": "Laboratory"
              }
            ],
            "text": "Laboratory"
          }
        ],
        "extension": [
          {
            "url": "http://hl7.org/fhir/us/home-lab-report/StructureDefinition/Extension-at-home-in-vitro-test-proctored-info",
            "extension": [
              {
                "url": "proctoredTest",
                "valueBoolean": true
              },
              {
                "url": "proctorInformation",
                "valueReference": {
                  "reference": "Practitioner/practitioner-us-core-proctor"
                }
              }
            ]
          }
        ],
        "code": {
          "coding": [
            {
              "code": "95209-3",
              "system": "http://loinc.org",
              "display": "SARS-CoV+SARS-CoV-2 (COVID-19) Ag [Presence] in Respiratory specimen by Rapid immunoassay"
            }
          ],
          "text": "SARS-CoV+SARS-CoV-2 (COVID-19) Ag [Presence] in Respiratory specimen by Rapid immunoassay"
        },
        "subject": {
          "reference": "Patient/patient-at-home-in-vitro-test-patricia-noelle",
          "display": "Patricia Noelle"
        },
        "effectiveDateTime": "2020-03-10",
        "valueCodeableConcept": {
          "coding": [
            {
              "code": "260373001",
              "system": "http://snomed.info/sct",
              "display": "Detected"
            }
          ]
        },
        "specimen": {
          "reference": "Specimen/specimen-anterior-nares-swab-p-noelle",
          "display": "UR Specimen ID: MLD45-Z4-1234"
        },
        "device": {
          "reference": "Device/device-fast-sars-antigen-test",
          "display": "UDI Device ID: 30014613339373"
        }
      }
    },
    {
      "fullUrl": "https://fhir.org/fhir/Observation/observation-patient-answer-symptoms-present-covid-p-noelle",
      "resource": {
        "resourceType": "Observation",
        "id": "observation-patient-answer-symptoms-present-covid-p-noelle",
        "meta": {
          "versionId": "8",
          "lastUpdated": "2023-01-26T21:31:27.755+00:00",
          "source": "#II9jDGmPPdFQ1QtM",
          "profile": [
            "http://hl7.org/fhir/us/home-lab-report/StructureDefinition/Observation-patient-question-answer"
          ]
        },
        "category": [
          {
            "coding": [
              {
                "system": "http://terminology.hl7.org/CodeSystem/observation-category",
                "code": "survey",
                "display": "Survey"
              }
            ],
            "text": "Survey"
          }
        ],
        "status": "final",
        "code": {
          "coding": [
            {
              "code": "95419-8",
              "system": "http://loinc.org",
              "display": "Whether the patient has symptoms related to condition of interest"
            }
          ],
          "text": "Whether the patient has symptoms related to condition of interest"
        },
        "subject": {
          "reference": "Patient/patient-at-home-in-vitro-test-patricia-noelle",
          "display": "Patricia Noelle"
        },
        "effectiveDateTime": "2021-03-24",
        "valueCodeableConcept": {
          "coding": [
            {
              "code": "Y",
              "system": "http://terminology.hl7.org/CodeSystem/v2-0532",
              "display": "Yes"
            }
          ]
        }
      }
    },
    {
      "fullUrl": "https://fhir.org/fhir/Patient/patient-at-home-in-vitro-test-patricia-noelle",
      "resource": {
        "resourceType": "Patient",
        "id": "patient-at-home-in-vitro-test-patricia-noelle",
        "meta": {
          "versionId": "4",
          "lastUpdated": "2023-01-26T02:02:08.079+00:00",
          "source": "#8Lcr0qlYU9srAJpp",
          "profile": [
            "http://hl7.org/fhir/us/home-lab-report/StructureDefinition/Patient-at-home-in-vitro-test"
          ]
        },
        "extension": [
          {
            "extension": [
              {
                "url": "value",
                "valueCodeableConcept": {
                  "coding": [
                    {
                      "code": "female",
                      "system": "http://hl7.org/fhir/us/home-lab-report/CodeSystem/codesystem-sex-for-clinical-use",
                      "display": "Female sex for clinical use"
                    }
                  ]
                }
              }
            ],
            "url": "http://hl7.org/fhir/us/home-lab-report/StructureDefinition/Extension-sex-for-clinical-use"
          }
        ],
        "identifier": [
          {
            "use": "usual",
            "type": {
              "coding": [
                {
                  "code": "MR",
                  "system": "http://terminology.hl7.org/CodeSystem/v2-0203",
                  "display": "Medical Record Number"
                }
              ],
              "text": "Medical Record Number"
            },
            "system": "http://hospital.smarthealthit.org",
            "value": "900"
          }
        ],
        "active": true,
        "name": [
          {
            "family": "Noelle",
            "given": [
              "Patricia"
            ]
          }
        ],
        "telecom": [
          {
            "system": "phone",
            "value": "555-555-2003",
            "use": "home"
          },
          {
            "system": "email",
            "value": "Patricia.Noelle@example.com"
          }
        ],
        "gender": "female",
        "birthDate": "1954-10-17",
        "address": [
          {
            "line": [
              "7247 Main St"
            ],
            "city": "Springfield",
            "district": "Sangamon",
            "state": "IL",
            "postalCode": "62707",
            "country": "US"
          }
        ]
      }
    },
    {
      "fullUrl": "https://fhir.org/fhir/Organization/us-core-organization-acme-corporation",
      "resource": {
        "resourceType": "Organization",
        "id": "us-core-organization-acme-corporation",
        "meta": {
          "versionId": "1",
          "lastUpdated": "2023-01-25T03:55:30.489+00:00",
          "source": "#hFottMb9EDuarurm",
          "profile": [
            "http://hl7.org/fhir/us/core/StructureDefinition/us-core-organization"
          ]
        },
        "active": true,
        "name": "Acme Corporation",
        "telecom": [
          {
            "system": "phone",
            "value": "+1(858)552-1100"
          }
        ]
      }
    },
    {
      "fullUrl": "https://fhir.org/fhir/Specimen/specimen-anterior-nares-swab-p-noelle",
      "resource": {
        "resourceType": "Specimen",
        "id": "specimen-anterior-nares-swab-p-noelle",
        "meta": {
          "versionId": "6",
          "lastUpdated": "2023-01-25T01:33:50.193+00:00",
          "source": "#DSovhABs4xmUnQvH",
          "profile": [
            "http://hl7.org/fhir/us/home-lab-report/StructureDefinition/Specimen-at-home-in-vitro-test"
          ]
        },
        "identifier": [
          {
            "system": "http://lab.acme.org/specimens/2021",
            "value": "MLD45-Z4-1234"
          }
        ],
        "status": "available",
        "type": {
          "coding": [
            {
              "code": "697989009",
              "system": "http://snomed.info/sct",
              "display": "Anterior nares swab (specimen)"
            }
          ],
          "text": "Anterior nares swab (specimen)"
        },
        "subject": {
          "reference": "Patient/patient-at-home-in-vitro-test-patricia-noelle",
          "display": "Patricia Noelle"
        },
        "receivedTime": "2021-12-03T16:00:00Z",
        "collection": {
          "collectedDateTime": "2021-12-03T11:00:00Z"
        }
      }
    },
    {
      "fullUrl": "https://fhir.org/fhir/Device/device-fast-sars-antigen-test",
      "resource": {
        "resourceType": "Device",
        "id": "device-fast-sars-antigen-test",
        "meta": {
          "versionId": "2",
          "lastUpdated": "2023-01-26T20:01:05.323+00:00",
          "source": "#Hp8Mpdd6o2h3z2EU",
          "profile": [
            "http://hl7.org/fhir/us/home-lab-report/StructureDefinition/Device-at-home-in-vitro-test"
          ]
        },
        "deviceName": [
          {
            "type": "model-name",
            "name": "Fast SARS Antigen Test"
          }
        ],
        "udiCarrier": [
          {
            "deviceIdentifier": "30014613339374",
            "issuer": "GS1"
          }
        ],
        "status": "active",
        "manufacturer": "ACME CORPORATION",
        "expirationDate": "2022-11-20",
        "lotNumber": "7654321E",
        "serialNumber": "10987654d322",
        "modelNumber": "20387",
        "partNumber": "20387"
      }
    }
  ]
}
