<?xml version="1.0" encoding="UTF-8"?>
<Bundle xmlns="http://hl7.org/fhir">
  <id value="bundle-at-home-in-vitro-test-results-s-trevor" />
  <meta>
    <profile value="http://hl7.org/fhir/us/home-lab-report/StructureDefinition/Bundle-at-home-in-vitro-test" />
  </meta>
  <identifier>
    <system value="urn:ietf:rfc:3986" />
    <value value="urn:uuid:683dde44f7664b03a20b6324f23986d8" />
  </identifier>
  <type value="message" />
  <timestamp value="2021-01-28T16:07:15-05:00" />
  <entry>
    <fullUrl value="https://fhir.org/fhir/MessageHeader/messageheader-at-home-in-vitro-test-s-trevor" />
    <resource>
      <MessageHeader xmlns="http://hl7.org/fhir">
        <id value="messageheader-at-home-in-vitro-test-s-trevor" />
        <meta>
          <versionId value="2" />
          <lastUpdated value="2023-01-26T22:41:41.871+00:00" />
          <source value="#7uPOAfaywEsWK4x3" />
          <profile value="http://hl7.org/fhir/us/home-lab-report/StructureDefinition/MessageHeader-at-home-in-vitro-test-results" />
        </meta>
        <text>
          <status value="generated" />
          <div xmlns="http://www.w3.org/1999/xhtml">
            <p>
              <b>Generated Narrative: MessageHeader</b>
              <a name="messageheader-at-home-in-vitro-test-s-trevor"> </a>
            </p>
            <div style="display: inline-block; background-color: #d9e0e7; padding: 6px; margin: 4px; border: 1px solid #8da1b4; border-radius: 5px; line-height: 60%">
              <p style="margin-bottom: 0px">Resource MessageHeader &quot;messageheader-at-home-in-vitro-test-s-trevor&quot; Version &quot;2&quot; Updated &quot;2023-01-26 22:41:41+0000&quot; </p>
              <p style="margin-bottom: 0px">Information Source: #7uPOAfaywEsWK4x3!</p>
              <p style="margin-bottom: 0px">Profile: <a href="StructureDefinition-MessageHeader-at-home-in-vitro-test-results.html">MessageHeader - At-Home In-Vitro Test Results</a></p>
            </div>
            <p><b>event</b>: Result of most recent lab test for condition of interest (Details: LOINC code 96552-5 = 'Result of most recent lab test for condition of interest', stated as 'null')</p>
            <h3>Sources</h3>
            <table class="grid">
              <tr>
                <td>-</td>
                <td>
                  <b>Extension</b>
                </td>
                <td>
                  <b>Name</b>
                </td>
                <td>
                  <b>Software</b>
                </td>
                <td>
                  <b>Endpoint</b>
                </td>
              </tr>
              <tr>
                <td>*</td>
                <td />
                <td>ACMELIMS PH</td>
                <td>ACMELIMS PH</td>
                <td>
                  <a href="http://at-home-in-vitro-test.org/fhir/endpoint/1">http://at-home-in-vitro-test.org/fhir/endpoint/1</a>
                </td>
              </tr>
            </table>
            <p><b>focus</b>: <a href="DiagnosticReport-diagnosticreport-at-home-in-vitro-results-covid-s-trevor.html">DiagnosticReport/diagnosticreport-at-home-in-vitro-results-covid-s-trevor</a></p>
          </div>
        </text>
        <eventCoding>
          <system value="http://loinc.org" />
          <code value="96552-5" />
        </eventCoding>
        <source>
          <extension url="http://hl7.org/fhir/us/home-lab-report/StructureDefinition/Extension-at-home-in-vitro-test-source-software-info">
            <extension url="vendorOrganization">
              <valueReference>
                <reference value="Organization/us-core-organization-reliable-informatics" />
              </valueReference>
            </extension>
            <extension url="softwareBinaryID">
              <valueString value="Binary ID unknown" />
            </extension>
          </extension>
          <name value="ACMELIMS PH" />
          <software value="ACMELIMS PH" />
          <endpoint value="http://at-home-in-vitro-test.org/fhir/endpoint/1" />
        </source>
        <focus>
          <reference value="DiagnosticReport/diagnosticreport-at-home-in-vitro-results-covid-s-trevor" />
        </focus>
      </MessageHeader>
    </resource>
  </entry>
  <entry>
    <fullUrl value="https://fhir.org/fhir/DiagnosticReport/diagnosticreport-at-home-in-vitro-results-covid-s-trevor" />
    <resource>
      <DiagnosticReport xmlns="http://hl7.org/fhir">
        <id value="diagnosticreport-at-home-in-vitro-results-covid-s-trevor" />
        <meta>
          <versionId value="2" />
          <lastUpdated value="2023-01-26T22:33:19.818+00:00" />
          <source value="#Ge55aDZCqn1xIV3N" />
          <profile value="http://hl7.org/fhir/us/home-lab-report/StructureDefinition/DiagnosticReport-at-home-in-vitro-results-covid" />
        </meta>
        <text>
          <status value="generated" />
          <div xmlns="http://www.w3.org/1999/xhtml">
            <div class="hapiHeaderText"> SARS-CoV+SARS-CoV-2 (COVID-19) Ag [Presence] in Respiratory specimen by Rapid immunoassay </div>
            <table class="hapiPropertyTable">
              <tbody>
                <tr>
                  <td>Status</td>
                  <td>FINAL</td>
                </tr>
                <tr>
                  <td>Issued</td>
                  <td> 28 January 2021 21:06:21 </td>
                </tr>
              </tbody>
            </table>
          </div>
        </text>
        <extension url="http://hl7.org/fhir/us/home-lab-report/StructureDefinition/Extension-at-home-in-vitro-test-supporting-info">
          <extension url="type">
            <valueCodeableConcept>
              <coding>
                <system value="http://terminology.hl7.org/CodeSystem/v2-0936" />
                <code value="QST" />
                <display value="Question" />
              </coding>
            </valueCodeableConcept>
          </extension>
          <extension url="reference">
            <valueReference>
              <reference value="Observation/observation-patient-answer-first-test-s-trevor" />
              <display value="Whether this is the patient's first test for the condition of interest: No" />
            </valueReference>
          </extension>
        </extension>
        <extension url="http://hl7.org/fhir/us/home-lab-report/StructureDefinition/Extension-at-home-in-vitro-test-supporting-info">
          <extension url="type">
            <valueCodeableConcept>
              <coding>
                <system value="http://terminology.hl7.org/CodeSystem/v2-0936" />
                <code value="QST" />
                <display value="Question" />
              </coding>
            </valueCodeableConcept>
          </extension>
          <extension url="reference">
            <valueReference>
              <reference value="Observation/observation-patient-answer-employed-healthcare-s-trevor" />
              <display value="Whether patient is employed in a healthcare setting: No" />
            </valueReference>
          </extension>
        </extension>
        <extension url="http://hl7.org/fhir/us/home-lab-report/StructureDefinition/Extension-at-home-in-vitro-test-supporting-info">
          <extension url="type">
            <valueCodeableConcept>
              <coding>
                <system value="http://terminology.hl7.org/CodeSystem/v2-0936" />
                <code value="QST" />
                <display value="Question" />
              </coding>
            </valueCodeableConcept>
          </extension>
          <extension url="reference">
            <valueReference>
              <reference value="Observation/observation-patient-answer-symptoms-present-covid-s-trevor" />
              <display value="Whether patient has symptoms related to condition of interest: Yes" />
            </valueReference>
          </extension>
        </extension>
        <extension url="http://hl7.org/fhir/us/home-lab-report/StructureDefinition/Extension-at-home-in-vitro-test-supporting-info">
          <extension url="type">
            <valueCodeableConcept>
              <coding>
                <system value="http://terminology.hl7.org/CodeSystem/v2-0936" />
                <code value="QST" />
                <display value="Question" />
              </coding>
            </valueCodeableConcept>
          </extension>
          <extension url="reference">
            <valueReference>
              <reference value="Observation/observation-patient-answer-hospitalized-s-trevor" />
              <display value="Whether patient was hospitalized because of this condition: No" />
            </valueReference>
          </extension>
        </extension>
        <extension url="http://hl7.org/fhir/us/home-lab-report/StructureDefinition/Extension-at-home-in-vitro-test-supporting-info">
          <extension url="type">
            <valueCodeableConcept>
              <coding>
                <system value="http://terminology.hl7.org/CodeSystem/v2-0936" />
                <code value="QST" />
                <display value="Question" />
              </coding>
            </valueCodeableConcept>
          </extension>
          <extension url="reference">
            <valueReference>
              <reference value="Observation/observation-patient-answer-congregate-s-trevor" />
              <display value="Whether patient resides in a congregate care setting: Yes" />
            </valueReference>
          </extension>
        </extension>
        <extension url="http://hl7.org/fhir/us/home-lab-report/StructureDefinition/Extension-at-home-in-vitro-test-supporting-info">
          <extension url="type">
            <valueCodeableConcept>
              <coding>
                <system value="http://terminology.hl7.org/CodeSystem/v2-0936" />
                <code value="QST" />
                <display value="Question" />
              </coding>
            </valueCodeableConcept>
          </extension>
          <extension url="reference">
            <valueReference>
              <reference value="Observation/observation-patient-answer-pregnancy-s-trevor" />
              <display value="Pregnancy status: Not pregnant" />
            </valueReference>
          </extension>
        </extension>
        <status value="final" />
        <category>
          <coding>
            <system value="http://terminology.hl7.org/CodeSystem/v2-0074" />
            <code value="LAB" />
            <display value="Laboratory" />
          </coding>
        </category>
        <code>
          <coding>
            <system value="http://loinc.org" />
            <code value="95209-3" />
            <display value="SARS-CoV+SARS-CoV-2 (COVID-19) Ag [Presence] in Respiratory specimen by Rapid immunoassay" />
          </coding>
        </code>
        <subject>
          <reference value="Patient/patient-at-home-in-vitro-test-stacy-trevor" />
          <display value="Stacy Trevor" />
        </subject>
        <effectiveDateTime value="2021-01-28T11:45:33+11:00" />
        <issued value="2021-01-28T16:06:21-05:00" />
        <result>
          <reference value="Observation/observation-at-home-in-vitro-test-result-covid-s-trevor" />
          <display value="SARS-CoV+SARS-CoV-2" />
        </result>
      </DiagnosticReport>
    </resource>
  </entry>
  <entry>
    <fullUrl value="https://fhir.org/fhir/Observation/observation-at-home-in-vitro-test-result-covid-s-trevor" />
    <resource>
      <Observation xmlns="http://hl7.org/fhir">
        <id value="observation-at-home-in-vitro-test-result-covid-s-trevor" />
        <meta>
          <versionId value="1" />
          <lastUpdated value="2023-01-26T22:14:40.519+00:00" />
          <source value="#zinBI6yFGAuJQfTe" />
          <profile value="http://hl7.org/fhir/us/home-lab-report/StructureDefinition/Observation-at-home-in-vitro-test-result-covid" />
        </meta>
        <text>
          <status value="generated" />
          <div xmlns="http://www.w3.org/1999/xhtml">
            <p>
              <b>Generated Narrative: Observation</b>
              <a name="observation-at-home-in-vitro-test-result-covid-s-trevor"> </a>
            </p>
            <div style="display: inline-block; background-color: #d9e0e7; padding: 6px; margin: 4px; border: 1px solid #8da1b4; border-radius: 5px; line-height: 60%">
              <p style="margin-bottom: 0px">Resource Observation &quot;observation-at-home-in-vitro-test-result-covid-s-trevor&quot; Version &quot;1&quot; Updated &quot;2023-01-26 22:14:40+0000&quot; </p>
              <p style="margin-bottom: 0px">Information Source: #zinBI6yFGAuJQfTe!</p>
              <p style="margin-bottom: 0px">Profile: <a href="StructureDefinition-Observation-at-home-in-vitro-test-result-covid.html">Observation - At-Home In-Vitro Test Result - COVID-19</a></p>
            </div>
            <p><b>status</b>: final</p>
            <p><b>category</b>: Laboratory <span style="background: LightGoldenRodYellow; margin: 4px; border: 1px solid khaki"> (<a href="http://terminology.hl7.org/3.1.0/CodeSystem-observation-category.html">Observation Category Codes</a>#laboratory)</span></p>
            <p><b>code</b>: SARS-CoV+SARS-CoV-2 (COVID-19) Ag [Presence] in Respiratory specimen by Rapid immunoassay <span style="background: LightGoldenRodYellow; margin: 4px; border: 1px solid khaki"> (<a href="https://loinc.org/95209-3">LOINC</a>#95209-3)</span></p>
            <p><b>subject</b>: <a href="Patient-patient-at-home-in-vitro-test-stacy-trevor.html">Patient/patient-at-home-in-vitro-test-stacy-trevor: Stacy Trevor</a> &quot; TREVOR&quot;</p>
            <p><b>effective</b>: 2021-01-28 16:06:21-0500</p>
            <p><b>value</b>: Detected <span style="background: LightGoldenRodYellow; margin: 4px; border: 1px solid khaki"> (<a href="https://browser.ihtsdotools.org/">SNOMED CT</a>#260373001)</span></p>
            <p><b>specimen</b>: <a href="Specimen-specimen-swab-internal-nose-s-trevor.html">Specimen/specimen-swab-internal-nose-s-trevor: P21-0000105078OneReliableSol.STAG</a></p>
            <p><b>device</b>: <a href="Device-device-hometest1-s-trevor.html">Device/device-hometest1-s-trevor: Acme COVID-19 Home Test_Acme Limited</a></p>
          </div>
        </text>
        <status value="final" />
        <category>
          <coding>
            <system value="http://terminology.hl7.org/CodeSystem/observation-category" />
            <code value="laboratory" />
            <display value="Laboratory" />
          </coding>
          <text value="Laboratory" />
        </category>
        <code>
          <coding>
            <system value="http://loinc.org" />
            <code value="95209-3" />
            <display value="SARS-CoV+SARS-CoV-2 (COVID-19) Ag [Presence] in Respiratory specimen by Rapid immunoassay" />
          </coding>
          <text value="SARS-CoV+SARS-CoV-2 (COVID-19) Ag [Presence] in Respiratory specimen by Rapid immunoassay" />
        </code>
        <subject>
          <reference value="Patient/patient-at-home-in-vitro-test-stacy-trevor" />
          <display value="Stacy Trevor" />
        </subject>
        <effectiveDateTime value="2021-01-28T16:06:21-05:00" />
        <valueCodeableConcept>
          <coding>
            <system value="http://snomed.info/sct" />
            <code value="260373001" />
            <display value="Detected" />
          </coding>
        </valueCodeableConcept>
        <specimen>
          <reference value="Specimen/specimen-swab-internal-nose-s-trevor" />
          <display value="P21-0000105078OneReliableSol.STAG" />
        </specimen>
        <device>
          <reference value="Device/device-hometest1-s-trevor" />
          <display value="Acme COVID-19 Home Test_Acme Limited" />
        </device>
      </Observation>
    </resource>
  </entry>
  <entry>
    <fullUrl value="https://fhir.org/fhir/Observation/observation-patient-answer-symptoms-present-covid-s-trevor" />
    <resource>
      <Observation xmlns="http://hl7.org/fhir">
        <id value="observation-patient-answer-symptoms-present-covid-s-trevor" />
        <meta>
          <versionId value="1" />
          <lastUpdated value="2023-01-26T22:14:40.524+00:00" />
          <source value="#lfKCMMJjTs4Rs37D" />
          <profile value="http://hl7.org/fhir/us/home-lab-report/StructureDefinition/Observation-patient-question-answer" />
        </meta>
        <text>
          <status value="generated" />
          <div xmlns="http://www.w3.org/1999/xhtml">
            <p>
              <b>Generated Narrative: Observation</b>
              <a name="observation-patient-answer-symptoms-present-covid-s-trevor"> </a>
            </p>
            <div style="display: inline-block; background-color: #d9e0e7; padding: 6px; margin: 4px; border: 1px solid #8da1b4; border-radius: 5px; line-height: 60%">
              <p style="margin-bottom: 0px">Resource Observation &quot;observation-patient-answer-symptoms-present-covid-s-trevor&quot; Version &quot;1&quot; Updated &quot;2023-01-26 22:14:40+0000&quot; </p>
              <p style="margin-bottom: 0px">Information Source: #lfKCMMJjTs4Rs37D!</p>
              <p style="margin-bottom: 0px">Profile: <a href="StructureDefinition-Observation-patient-question-answer.html">Observation - Patient Question Answer</a></p>
            </div>
            <p><b>status</b>: final</p>
            <p><b>category</b>: Survey <span style="background: LightGoldenRodYellow; margin: 4px; border: 1px solid khaki"> (<a href="http://terminology.hl7.org/3.1.0/CodeSystem-observation-category.html">Observation Category Codes</a>#survey)</span></p>
            <p><b>code</b>: Whether the patient has symptoms related to condition of interest <span style="background: LightGoldenRodYellow; margin: 4px; border: 1px solid khaki"> (<a href="https://loinc.org/95419-8">LOINC</a>#95419-8)</span></p>
            <p><b>subject</b>: <a href="Patient-patient-at-home-in-vitro-test-stacy-trevor.html">Patient/patient-at-home-in-vitro-test-stacy-trevor: Stacy Trevor</a> &quot; TREVOR&quot;</p>
            <p><b>effective</b>: 2021-01-28 16:06:03-0500</p>
            <p><b>value</b>: Yes <span style="background: LightGoldenRodYellow; margin: 4px; border: 1px solid khaki"> (<a href="http://terminology.hl7.org/3.1.0/CodeSystem-v2-0532.html">expandedYes-NoIndicator</a>#Y)</span></p>
          </div>
        </text>
        <status value="final" />
        <category>
          <coding>
            <system value="http://terminology.hl7.org/CodeSystem/observation-category" />
            <code value="survey" />
            <display value="Survey" />
          </coding>
          <text value="Survey" />
        </category>
        <code>
          <coding>
            <system value="http://loinc.org" />
            <code value="95419-8" />
            <display value="Whether the patient has symptoms related to condition of interest" />
          </coding>
          <text value="Whether the patient has symptoms related to condition of interest" />
        </code>
        <subject>
          <reference value="Patient/patient-at-home-in-vitro-test-stacy-trevor" />
          <display value="Stacy Trevor" />
        </subject>
        <effectiveDateTime value="2021-01-28T16:06:03-05:00" />
        <valueCodeableConcept>
          <coding>
            <system value="http://terminology.hl7.org/CodeSystem/v2-0532" />
            <code value="Y" />
            <display value="Yes" />
          </coding>
        </valueCodeableConcept>
      </Observation>
    </resource>
  </entry>
  <entry>
    <fullUrl value="https://fhir.org/fhir/Observation/observation-patient-answer-hospitalized-s-trevor" />
    <resource>
      <Observation xmlns="http://hl7.org/fhir">
        <id value="observation-patient-answer-hospitalized-s-trevor" />
        <meta>
          <versionId value="2" />
          <lastUpdated value="2023-01-26T22:45:04.344+00:00" />
          <source value="#HFkhZJ9OUCagztur" />
          <profile value="http://hl7.org/fhir/us/home-lab-report/StructureDefinition/Observation-patient-question-answer" />
        </meta>
        <text>
          <status value="generated" />
          <div xmlns="http://www.w3.org/1999/xhtml">
            <p>
              <b>Generated Narrative: Observation</b>
              <a name="observation-patient-answer-hospitalized-s-trevor"> </a>
            </p>
            <div style="display: inline-block; background-color: #d9e0e7; padding: 6px; margin: 4px; border: 1px solid #8da1b4; border-radius: 5px; line-height: 60%">
              <p style="margin-bottom: 0px">Resource Observation &quot;observation-patient-answer-hospitalized-s-trevor&quot; Version &quot;2&quot; Updated &quot;2023-01-26 22:45:04+0000&quot; </p>
              <p style="margin-bottom: 0px">Information Source: #HFkhZJ9OUCagztur!</p>
              <p style="margin-bottom: 0px">Profile: <a href="StructureDefinition-Observation-patient-question-answer.html">Observation - Patient Question Answer</a></p>
            </div>
            <p><b>status</b>: final</p>
            <p><b>category</b>: Survey <span style="background: LightGoldenRodYellow; margin: 4px; border: 1px solid khaki"> (<a href="http://terminology.hl7.org/3.1.0/CodeSystem-observation-category.html">Observation Category Codes</a>#survey)</span></p>
            <p><b>code</b>: Whether the patient was hospitalized for condition of interest <span style="background: LightGoldenRodYellow; margin: 4px; border: 1px solid khaki"> (<a href="https://loinc.org/77974-4">LOINC</a>#77974-4)</span></p>
            <p><b>subject</b>: <a href="Patient-patient-at-home-in-vitro-test-stacy-trevor.html">Patient/patient-at-home-in-vitro-test-stacy-trevor: Stacy Trevor</a> &quot; TREVOR&quot;</p>
            <p><b>effective</b>: 2021-01-28 16:06:03-0500</p>
            <p><b>value</b>: No <span style="background: LightGoldenRodYellow; margin: 4px; border: 1px solid khaki"> (<a href="http://terminology.hl7.org/3.1.0/CodeSystem-v2-0532.html">expandedYes-NoIndicator</a>#N)</span></p>
          </div>
        </text>
        <status value="final" />
        <category>
          <coding>
            <system value="http://terminology.hl7.org/CodeSystem/observation-category" />
            <code value="survey" />
            <display value="Survey" />
          </coding>
          <text value="Survey" />
        </category>
        <code>
          <coding>
            <system value="http://loinc.org" />
            <code value="77974-4" />
            <display value="Whether the patient was hospitalized for condition of interest" />
          </coding>
          <text value="Whether the patient was hospitalized for condition of interest" />
        </code>
        <subject>
          <reference value="Patient/patient-at-home-in-vitro-test-stacy-trevor" />
          <display value="Stacy Trevor" />
        </subject>
        <effectiveDateTime value="2021-01-28T16:06:03-05:00" />
        <valueCodeableConcept>
          <coding>
            <system value="http://terminology.hl7.org/CodeSystem/v2-0532" />
            <code value="N" />
            <display value="No" />
          </coding>
        </valueCodeableConcept>
      </Observation>
    </resource>
  </entry>
  <entry>
    <fullUrl value="https://fhir.org/fhir/Observation/observation-patient-answer-congregate-s-trevor" />
    <resource>
      <Observation xmlns="http://hl7.org/fhir">
        <id value="observation-patient-answer-congregate-s-trevor" />
        <meta>
          <versionId value="1" />
          <lastUpdated value="2023-01-26T22:14:40.525+00:00" />
          <source value="#gqS1fGnjiCaUi3OM" />
          <profile value="http://hl7.org/fhir/us/home-lab-report/StructureDefinition/Observation-patient-question-answer" />
        </meta>
        <text>
          <status value="generated" />
          <div xmlns="http://www.w3.org/1999/xhtml">
            <p>
              <b>Generated Narrative: Observation</b>
              <a name="observation-patient-answer-congregate-s-trevor"> </a>
            </p>
            <div style="display: inline-block; background-color: #d9e0e7; padding: 6px; margin: 4px; border: 1px solid #8da1b4; border-radius: 5px; line-height: 60%">
              <p style="margin-bottom: 0px">Resource Observation &quot;observation-patient-answer-congregate-s-trevor&quot; Version &quot;1&quot; Updated &quot;2023-01-26 22:14:40+0000&quot; </p>
              <p style="margin-bottom: 0px">Information Source: #gqS1fGnjiCaUi3OM!</p>
              <p style="margin-bottom: 0px">Profile: <a href="StructureDefinition-Observation-patient-question-answer.html">Observation - Patient Question Answer</a></p>
            </div>
            <p><b>status</b>: final</p>
            <p><b>category</b>: Survey <span style="background: LightGoldenRodYellow; margin: 4px; border: 1px solid khaki"> (<a href="http://terminology.hl7.org/3.1.0/CodeSystem-observation-category.html">Observation Category Codes</a>#survey)</span></p>
            <p><b>code</b>: Whether patient resides in a congregate care setting <span style="background: LightGoldenRodYellow; margin: 4px; border: 1px solid khaki"> (<a href="https://loinc.org/95421-4">LOINC</a>#95421-4)</span></p>
            <p><b>subject</b>: <a href="Patient-patient-at-home-in-vitro-test-stacy-trevor.html">Patient/patient-at-home-in-vitro-test-stacy-trevor: Stacy Trevor</a> &quot; TREVOR&quot;</p>
            <p><b>effective</b>: 2021-01-28 16:06:03-0500</p>
            <p><b>value</b>: Yes <span style="background: LightGoldenRodYellow; margin: 4px; border: 1px solid khaki"> (<a href="http://terminology.hl7.org/3.1.0/CodeSystem-v2-0532.html">expandedYes-NoIndicator</a>#Y)</span></p>
          </div>
        </text>
        <status value="final" />
        <category>
          <coding>
            <system value="http://terminology.hl7.org/CodeSystem/observation-category" />
            <code value="survey" />
            <display value="Survey" />
          </coding>
          <text value="Survey" />
        </category>
        <code>
          <coding>
            <system value="http://loinc.org" />
            <code value="95421-4" />
            <display value="Whether patient resides in a congregate care setting" />
          </coding>
          <text value="Whether patient resides in a congregate care setting" />
        </code>
        <subject>
          <reference value="Patient/patient-at-home-in-vitro-test-stacy-trevor" />
          <display value="Stacy Trevor" />
        </subject>
        <effectiveDateTime value="2021-01-28T16:06:03-05:00" />
        <valueCodeableConcept>
          <coding>
            <system value="http://terminology.hl7.org/CodeSystem/v2-0532" />
            <code value="Y" />
            <display value="Yes" />
          </coding>
        </valueCodeableConcept>
      </Observation>
    </resource>
  </entry>
  <entry>
    <fullUrl value="https://fhir.org/fhir/Observation/observation-patient-answer-employed-healthcare-s-trevor" />
    <resource>
      <Observation xmlns="http://hl7.org/fhir">
        <id value="observation-patient-answer-employed-healthcare-s-trevor" />
        <meta>
          <versionId value="2" />
          <lastUpdated value="2023-01-26T22:43:34.963+00:00" />
          <source value="#JSpmpl8a7Yhg2kNv" />
          <profile value="http://hl7.org/fhir/us/home-lab-report/StructureDefinition/Observation-patient-question-answer" />
        </meta>
        <text>
          <status value="generated" />
          <div xmlns="http://www.w3.org/1999/xhtml">
            <p>
              <b>Generated Narrative: Observation</b>
              <a name="observation-patient-answer-employed-healthcare-s-trevor"> </a>
            </p>
            <div style="display: inline-block; background-color: #d9e0e7; padding: 6px; margin: 4px; border: 1px solid #8da1b4; border-radius: 5px; line-height: 60%">
              <p style="margin-bottom: 0px">Resource Observation &quot;observation-patient-answer-employed-healthcare-s-trevor&quot; Version &quot;2&quot; Updated &quot;2023-01-26 22:43:34+0000&quot; </p>
              <p style="margin-bottom: 0px">Information Source: #JSpmpl8a7Yhg2kNv!</p>
              <p style="margin-bottom: 0px">Profile: <a href="StructureDefinition-Observation-patient-question-answer.html">Observation - Patient Question Answer</a></p>
            </div>
            <p><b>status</b>: final</p>
            <p><b>category</b>: Survey <span style="background: LightGoldenRodYellow; margin: 4px; border: 1px solid khaki"> (<a href="http://terminology.hl7.org/3.1.0/CodeSystem-observation-category.html">Observation Category Codes</a>#survey)</span></p>
            <p><b>code</b>: Whether patient is employed in a healthcare setting <span style="background: LightGoldenRodYellow; margin: 4px; border: 1px solid khaki"> (<a href="https://loinc.org/95418-0">LOINC</a>#95418-0)</span></p>
            <p><b>subject</b>: <a href="Patient-patient-at-home-in-vitro-test-stacy-trevor.html">Patient/patient-at-home-in-vitro-test-stacy-trevor: Stacy Trevor</a> &quot; TREVOR&quot;</p>
            <p><b>effective</b>: 2021-01-28 16:06:03-0500</p>
            <p><b>value</b>: No <span style="background: LightGoldenRodYellow; margin: 4px; border: 1px solid khaki"> (<a href="http://terminology.hl7.org/3.1.0/CodeSystem-v2-0532.html">expandedYes-NoIndicator</a>#N)</span></p>
          </div>
        </text>
        <status value="final" />
        <category>
          <coding>
            <system value="http://terminology.hl7.org/CodeSystem/observation-category" />
            <code value="survey" />
            <display value="Survey" />
          </coding>
          <text value="Survey" />
        </category>
        <code>
          <coding>
            <system value="http://loinc.org" />
            <code value="95418-0" />
            <display value="Whether patient is employed in a healthcare setting" />
          </coding>
          <text value="Whether patient is employed in a healthcare setting" />
        </code>
        <subject>
          <reference value="Patient/patient-at-home-in-vitro-test-stacy-trevor" />
          <display value="Stacy Trevor" />
        </subject>
        <effectiveDateTime value="2021-01-28T16:06:03-05:00" />
        <valueCodeableConcept>
          <coding>
            <system value="http://terminology.hl7.org/CodeSystem/v2-0532" />
            <code value="N" />
            <display value="No" />
          </coding>
        </valueCodeableConcept>
      </Observation>
    </resource>
  </entry>
  <entry>
    <fullUrl value="https://fhir.org/fhir/Observation/observation-patient-answer-first-test-s-trevor" />
    <resource>
      <Observation xmlns="http://hl7.org/fhir">
        <id value="observation-patient-answer-first-test-s-trevor" />
        <meta>
          <versionId value="2" />
          <lastUpdated value="2023-01-26T22:44:27.266+00:00" />
          <source value="#N2XwtOKvNJsa2Scu" />
          <profile value="http://hl7.org/fhir/us/home-lab-report/StructureDefinition/Observation-patient-question-answer" />
        </meta>
        <text>
          <status value="generated" />
          <div xmlns="http://www.w3.org/1999/xhtml">
            <p>
              <b>Generated Narrative: Observation</b>
              <a name="observation-patient-answer-first-test-s-trevor"> </a>
            </p>
            <div style="display: inline-block; background-color: #d9e0e7; padding: 6px; margin: 4px; border: 1px solid #8da1b4; border-radius: 5px; line-height: 60%">
              <p style="margin-bottom: 0px">Resource Observation &quot;observation-patient-answer-first-test-s-trevor&quot; Version &quot;2&quot; Updated &quot;2023-01-26 22:44:27+0000&quot; </p>
              <p style="margin-bottom: 0px">Information Source: #N2XwtOKvNJsa2Scu!</p>
              <p style="margin-bottom: 0px">Profile: <a href="StructureDefinition-Observation-patient-question-answer.html">Observation - Patient Question Answer</a></p>
            </div>
            <p><b>status</b>: final</p>
            <p><b>category</b>: Survey <span style="background: LightGoldenRodYellow; margin: 4px; border: 1px solid khaki"> (<a href="http://terminology.hl7.org/3.1.0/CodeSystem-observation-category.html">Observation Category Codes</a>#survey)</span></p>
            <p><b>code</b>: Whether this is the patient's first test for condition of interest <span style="background: LightGoldenRodYellow; margin: 4px; border: 1px solid khaki"> (<a href="https://loinc.org/95417-2">LOINC</a>#95417-2)</span></p>
            <p><b>subject</b>: <a href="Patient-patient-at-home-in-vitro-test-stacy-trevor.html">Patient/patient-at-home-in-vitro-test-stacy-trevor: Stacy Trevor</a> &quot; TREVOR&quot;</p>
            <p><b>effective</b>: 2021-01-28 16:06:03-0500</p>
            <p><b>value</b>: No <span style="background: LightGoldenRodYellow; margin: 4px; border: 1px solid khaki"> (<a href="http://terminology.hl7.org/3.1.0/CodeSystem-v2-0532.html">expandedYes-NoIndicator</a>#N)</span></p>
          </div>
        </text>
        <status value="final" />
        <category>
          <coding>
            <system value="http://terminology.hl7.org/CodeSystem/observation-category" />
            <code value="survey" />
            <display value="Survey" />
          </coding>
          <text value="Survey" />
        </category>
        <code>
          <coding>
            <system value="http://loinc.org" />
            <code value="95417-2" />
            <display value="Whether this is the patient's first test for condition of interest" />
          </coding>
          <text value="Whether this is the patient's first test for condition of interest" />
        </code>
        <subject>
          <reference value="Patient/patient-at-home-in-vitro-test-stacy-trevor" />
          <display value="Stacy Trevor" />
        </subject>
        <effectiveDateTime value="2021-01-28T16:06:03-05:00" />
        <valueCodeableConcept>
          <coding>
            <system value="http://terminology.hl7.org/CodeSystem/v2-0532" />
            <code value="N" />
            <display value="No" />
          </coding>
        </valueCodeableConcept>
      </Observation>
    </resource>
  </entry>
  <entry>
    <fullUrl value="https://fhir.org/fhir/Observation/observation-patient-answer-pregnancy-s-trevor" />
    <resource>
      <Observation xmlns="http://hl7.org/fhir">
        <id value="observation-patient-answer-pregnancy-s-trevor" />
        <meta>
          <versionId value="1" />
          <lastUpdated value="2023-01-26T22:14:40.518+00:00" />
          <source value="#YCOTptFf2QBL6SPy" />
          <profile value="http://hl7.org/fhir/us/home-lab-report/StructureDefinition/Observation-patient-question-answer" />
        </meta>
        <text>
          <status value="generated" />
          <div xmlns="http://www.w3.org/1999/xhtml">
            <p>
              <b>Generated Narrative: Observation</b>
              <a name="observation-patient-answer-pregnancy-s-trevor"> </a>
            </p>
            <div style="display: inline-block; background-color: #d9e0e7; padding: 6px; margin: 4px; border: 1px solid #8da1b4; border-radius: 5px; line-height: 60%">
              <p style="margin-bottom: 0px">Resource Observation &quot;observation-patient-answer-pregnancy-s-trevor&quot; Version &quot;1&quot; Updated &quot;2023-01-26 22:14:40+0000&quot; </p>
              <p style="margin-bottom: 0px">Information Source: #YCOTptFf2QBL6SPy!</p>
              <p style="margin-bottom: 0px">Profile: <a href="StructureDefinition-Observation-patient-question-answer.html">Observation - Patient Question Answer</a></p>
            </div>
            <p><b>status</b>: final</p>
            <p><b>category</b>: Survey <span style="background: LightGoldenRodYellow; margin: 4px; border: 1px solid khaki"> (<a href="http://terminology.hl7.org/3.1.0/CodeSystem-observation-category.html">Observation Category Codes</a>#survey)</span></p>
            <p><b>code</b>: Pregnancy status <span style="background: LightGoldenRodYellow; margin: 4px; border: 1px solid khaki"> (<a href="https://loinc.org/82810-3">LOINC</a>#82810-3)</span></p>
            <p><b>subject</b>: <a href="Patient-patient-at-home-in-vitro-test-stacy-trevor.html">Patient/patient-at-home-in-vitro-test-stacy-trevor: Stacy Trevor</a> &quot; TREVOR&quot;</p>
            <p><b>effective</b>: 2021-01-28 16:06:03-0500</p>
            <p><b>value</b>: Not pregnant (finding) <span style="background: LightGoldenRodYellow; margin: 4px; border: 1px solid khaki"> (<a href="https://browser.ihtsdotools.org/">SNOMED CT</a>#60001007)</span></p>
          </div>
        </text>
        <status value="final" />
        <category>
          <coding>
            <system value="http://terminology.hl7.org/CodeSystem/observation-category" />
            <code value="survey" />
            <display value="Survey" />
          </coding>
          <text value="Survey" />
        </category>
        <code>
          <coding>
            <system value="http://loinc.org" />
            <code value="82810-3" />
            <display value="Pregnancy status" />
          </coding>
          <text value="Pregnancy status" />
        </code>
        <subject>
          <reference value="Patient/patient-at-home-in-vitro-test-stacy-trevor" />
          <display value="Stacy Trevor" />
        </subject>
        <effectiveDateTime value="2021-01-28T16:06:03-05:00" />
        <valueCodeableConcept>
          <coding>
            <system value="http://snomed.info/sct" />
            <code value="60001007" />
            <display value="Not pregnant (finding)" />
          </coding>
        </valueCodeableConcept>
      </Observation>
    </resource>
  </entry>
  <entry>
    <fullUrl value="https://fhir.org/fhir/Patient/patient-at-home-in-vitro-test-stacy-trevor" />
    <resource>
      <Patient xmlns="http://hl7.org/fhir">
        <id value="patient-at-home-in-vitro-test-stacy-trevor" />
        <meta>
          <versionId value="2" />
          <lastUpdated value="2023-01-26T22:49:49.626+00:00" />
          <source value="#m0lIVlIgfqsr1jaz" />
          <profile value="http://hl7.org/fhir/us/home-lab-report/StructureDefinition/Patient-at-home-in-vitro-test" />
        </meta>
        <text>
          <status value="generated" />
          <div xmlns="http://www.w3.org/1999/xhtml">
            <p style="border: 1px #661aff solid; background-color: #e6e6ff; padding: 10px;"><b>Stacy Trevor </b> female, DoB: 1988-01-21 ( Medical Record Number: P21-0000105078 (use: USUAL))</p>
            <hr />
            <table class="grid">
              <tr>
                <td style="background-color: #f3f5da" title="Record is active">Active:</td>
                <td colspan="3">true</td>
              </tr>
              <tr>
                <td style="background-color: #f3f5da" title="Ways to contact the Patient">Contact Details:</td>
                <td colspan="3">
                  <ul>
                    <li>ph: 947-226-0356(HOME)</li>
                    <li>11 Norman Drive Palatine IL 60067 US </li>
                  </ul>
                </td>
              </tr>
              <tr>
                <td style="background-color: #f3f5da"
                  title="Concepts classifying the person into a named category of humans sharing common history, traits, geographical origin or nationality.  The ethnicity codes used to represent these concepts are based upon the [CDC ethnicity and Ethnicity Code Set Version 1.0](http://www.cdc.gov/phin/resources/vocabulary/index.html) which includes over 900 concepts for representing race and ethnicity of which 43 reference ethnicity.  The ethnicity concepts are grouped by and pre-mapped to the 2 OMB ethnicity categories: - Hispanic or Latino - Not Hispanic or Latino."
                  >US Core Ethnicity Extension:</td>
                <td colspan="3">
                  <ul>
                    <li>ombCategory: <a href="http://terminology.hl7.org/3.1.0/CodeSystem-v3-NullFlavor.html#v3-NullFlavor-UNK">NullFlavor</a> UNK: Unknown</li>
                    <li>text: Unknown</li>
                  </ul>
                </td>
              </tr>
              <tr>
                <td style="background-color: #f3f5da"
                  title="Concepts classifying the person into a named category of humans sharing common history, traits, geographical origin or nationality.  The race codes used to represent these concepts are based upon the [CDC Race and Ethnicity Code Set Version 1.0](http://www.cdc.gov/phin/resources/vocabulary/index.html) which includes over 900 concepts for representing race and ethnicity of which 921 reference race.  The race concepts are grouped by and pre-mapped to the 5 OMB race categories:
            
            - American Indian or Alaska Native
            - Asian
            - Black or African American
            - Native Hawaiian or Other Pacific Islander
            - White.">US Core Race Extension:</td>
                <td colspan="3">
                  <ul>
                    <li>ombCategory: <a href="http://terminology.hl7.org/3.1.0/CodeSystem-CDCREC.html#CDCREC-2054-5">CDC Race and Ethnicity</a> 2054-5: Black or African American</li>
                    <li>text: Black or African American</li>
                  </ul>
                </td>
              </tr>
              <tr>
                <td style="background-color: #f3f5da"
                  title="This extension is a copy of the not-yet-published 6.0.0-ballot version US Core Sex for Clinical Use, which aligns with FHIR R5 [sexForClinicalUse extension](http://hl7.org/fhir/2022Sep/extension-patient-sexforclinicaluse.html) from which the following description is excerpted, &quot;Sex for Clinical Use is a categorization of sex derived from observable information such as an organ inventory, recent hormone lab tests, genetic testing, menstrual status, obstetric history, etc. This property is intended for use in clinical decision making and indicates that treatment or diagnostic tests should consider best practices associated with the relevant reference population  It describes the biological sex of an organism, which is most commonly determined based on anatomy and physiology or genetic (chromosome) analysis.  It also optionally communicates the date when the sex was determined.&quot; See the referenced extension for more information."
                  >Extension - Sex For Clinical Use:</td>
                <td colspan="3">
                  <ul>
                    <li>value: <span title="Codes: {http://hl7.org/fhir/us/home-lab-report/CodeSystem/codesystem-sex-for-clinical-use female}">Female sex for clinical use</span></li>
                  </ul>
                </td>
              </tr>
            </table>
          </div>
        </text>
        <extension url="http://hl7.org/fhir/us/core/StructureDefinition/us-core-race">
          <extension url="ombCategory">
            <valueCoding>
              <system value="urn:oid:2.16.840.1.113883.6.238" />
              <code value="2054-5" />
              <display value="Black or African American" />
            </valueCoding>
          </extension>
          <extension url="text">
            <valueString value="Black or African American" />
          </extension>
        </extension>
        <extension url="http://hl7.org/fhir/us/core/StructureDefinition/us-core-ethnicity">
          <extension url="ombCategory">
            <valueCoding>
              <system value="http://terminology.hl7.org/CodeSystem/v3-NullFlavor" />
              <code value="UNK" />
              <display value="Unknown" />
            </valueCoding>
          </extension>
          <extension url="text">
            <valueString value="Unknown" />
          </extension>
        </extension>
        <extension url="http://hl7.org/fhir/us/home-lab-report/StructureDefinition/Extension-sex-for-clinical-use">
          <extension url="value">
            <valueCodeableConcept>
              <coding>
                <system value="http://hl7.org/fhir/us/home-lab-report/CodeSystem/codesystem-sex-for-clinical-use" />
                <code value="female" />
                <display value="Female sex for clinical use" />
              </coding>
            </valueCodeableConcept>
          </extension>
        </extension>
        <identifier>
          <use value="usual" />
          <type>
            <coding>
              <system value="http://terminology.hl7.org/CodeSystem/v2-0203" />
              <code value="MR" />
              <display value="Medical Record Number" />
            </coding>
            <text value="Medical Record Number" />
          </type>
          <system value="http://hospital.reliableorg.org" />
          <value value="P21-0000105078" />
        </identifier>
        <active value="true" />
        <name>
          <family value="Trevor" />
          <given value="Stacy" />
        </name>
        <telecom>
          <system value="phone" />
          <value value="947-226-0356" />
          <use value="home" />
        </telecom>
        <gender value="female" />
        <birthDate value="1988-01-21" />
        <address>
          <line value="11 Norman Drive" />
          <city value="Palatine" />
          <district value="Cook" />
          <state value="IL" />
          <postalCode value="60067" />
          <country value="US" />
        </address>
      </Patient>
    </resource>
  </entry>
  <entry>
    <fullUrl value="https://fhir.org/fhir/Specimen/specimen-swab-internal-nose-s-trevor" />
    <resource>
      <Specimen xmlns="http://hl7.org/fhir">
        <id value="specimen-swab-internal-nose-s-trevor" />
        <meta>
          <versionId value="2" />
          <lastUpdated value="2023-01-26T22:49:23.006+00:00" />
          <source value="#HpMWcBBNgkCMCvwC" />
          <profile value="http://hl7.org/fhir/us/home-lab-report/StructureDefinition/Specimen-at-home-in-vitro-test" />
        </meta>
        <text>
          <status value="generated" />
          <div xmlns="http://www.w3.org/1999/xhtml">
            <p>
              <b>Generated Narrative: Specimen</b>
              <a name="specimen-swab-internal-nose-s-trevor"> </a>
            </p>
            <div style="display: inline-block; background-color: #d9e0e7; padding: 6px; margin: 4px; border: 1px solid #8da1b4; border-radius: 5px; line-height: 60%">
              <p style="margin-bottom: 0px">Resource Specimen &quot;specimen-swab-internal-nose-s-trevor&quot; Version &quot;2&quot; Updated &quot;2023-01-26 22:49:23+0000&quot; </p>
              <p style="margin-bottom: 0px">Information Source: #HpMWcBBNgkCMCvwC!</p>
              <p style="margin-bottom: 0px">Profile: <a href="StructureDefinition-Specimen-at-home-in-vitro-test.html">Specimen - At-Home In-Vitro Test</a></p>
            </div>
            <p><b>identifier</b>: id: P21-0000105078OneReliableSol.STAG</p>
            <p><b>status</b>: available</p>
            <p><b>type</b>: Swab of internal nose (specimen) <span style="background: LightGoldenRodYellow; margin: 4px; border: 1px solid khaki"> (<a href="https://browser.ihtsdotools.org/">SNOMED CT</a>#445297001)</span></p>
            <p><b>subject</b>: <a href="Patient-patient-at-home-in-vitro-test-stacy-trevor.html">Patient/patient-at-home-in-vitro-test-stacy-trevor: Stacy Trevor</a> &quot; TREVOR&quot;</p>
            <p><b>receivedTime</b>: 2021-01-28 16:06:03-0500</p>
            <h3>Collections</h3>
            <table class="grid">
              <tr>
                <td>-</td>
                <td>
                  <b>Collected[x]</b>
                </td>
              </tr>
              <tr>
                <td>*</td>
                <td>2021-01-28 16:06:03-0500</td>
              </tr>
            </table>
          </div>
        </text>
        <identifier>
          <system value="http://reliable.org" />
          <value value="P21-0000105078OneReliableSol.STAG" />
        </identifier>
        <status value="available" />
        <type>
          <coding>
            <system value="http://snomed.info/sct" />
            <code value="445297001" />
            <display value="Swab of internal nose (specimen)" />
          </coding>
          <text value="Swab of internal nose (specimen)" />
        </type>
        <subject>
          <reference value="Patient/patient-at-home-in-vitro-test-stacy-trevor" />
          <display value="Stacy Trevor" />
        </subject>
        <receivedTime value="2021-01-28T16:06:03-05:00" />
        <collection>
          <collectedDateTime value="2021-01-28T16:06:03-05:00" />
        </collection>
      </Specimen>
    </resource>
  </entry>
  <entry>
    <fullUrl value="https://fhir.org/fhir/Device/device-hometest1-s-trevor" />
    <resource>
      <Device xmlns="http://hl7.org/fhir">
        <id value="device-hometest1-s-trevor" />
        <meta>
          <versionId value="1" />
          <lastUpdated value="2023-01-26T22:14:40.524+00:00" />
          <source value="#Sxj8SUXVLoqUDfBx" />
          <profile value="http://hl7.org/fhir/us/home-lab-report/StructureDefinition/Device-at-home-in-vitro-test" />
        </meta>
        <text>
          <status value="generated" />
          <div xmlns="http://www.w3.org/1999/xhtml">
            <p>
              <b>Generated Narrative: Device</b>
              <a name="device-hometest1-s-trevor"> </a>
            </p>
            <div style="display: inline-block; background-color: #d9e0e7; padding: 6px; margin: 4px; border: 1px solid #8da1b4; border-radius: 5px; line-height: 60%">
              <p style="margin-bottom: 0px">Resource Device &quot;device-hometest1-s-trevor&quot; Version &quot;1&quot; Updated &quot;2023-01-26 22:14:40+0000&quot; </p>
              <p style="margin-bottom: 0px">Information Source: #Sxj8SUXVLoqUDfBx!</p>
              <p style="margin-bottom: 0px">Profile: <a href="StructureDefinition-Device-at-home-in-vitro-test.html">Device - At-Home In-Vitro Test</a></p>
            </div>
            <h3>UdiCarriers</h3>
            <table class="grid">
              <tr>
                <td>-</td>
                <td>
                  <b>DeviceIdentifier</b>
                </td>
                <td>
                  <b>Issuer</b>
                </td>
              </tr>
              <tr>
                <td>*</td>
                <td>Acme COVID-19 Home Test_Acme Limited_EUA</td>
                <td>
                  <code>GS1</code>
                </td>
              </tr>
            </table>
            <p><b>status</b>: active</p>
            <p><b>manufacturer</b>: ACME CORPORATION</p>
            <p><b>expirationDate</b>: 2022-11-20</p>
            <p><b>lotNumber</b>: 7654321F</p>
            <p><b>serialNumber</b>: 10987654d323</p>
            <h3>DeviceNames</h3>
            <table class="grid">
              <tr>
                <td>-</td>
                <td>
                  <b>Name</b>
                </td>
                <td>
                  <b>Type</b>
                </td>
              </tr>
              <tr>
                <td>*</td>
                <td>Acme COVID-19 Home Test_Acme Limited</td>
                <td>model-name</td>
              </tr>
            </table>
            <p><b>modelNumber</b>: 20388</p>
            <p><b>partNumber</b>: 20388</p>
          </div>
        </text>
        <udiCarrier>
          <deviceIdentifier value="Acme COVID-19 Home Test_Acme Limited_EUA" />
          <issuer value="GS1" />
        </udiCarrier>
        <status value="active" />
        <manufacturer value="ACME CORPORATION" />
        <expirationDate value="2022-11-20" />
        <lotNumber value="7654321F" />
        <serialNumber value="10987654d323" />
        <deviceName>
          <name value="Acme COVID-19 Home Test_Acme Limited" />
          <type value="model-name" />
        </deviceName>
        <modelNumber value="20388" />
        <partNumber value="20388" />
      </Device>
    </resource>
  </entry>
</Bundle>
